Day fraction since midnight on 	Photometer Conc (mg/L)	Photometer  (volts)	Source pressure (Pa)
start
0.6205340135	1.4029192924	2.3827641010	0.0000000000
0.6205919518	1.3649169207	2.3984308243	0.0000000000
0.6206497723	1.3678940535	2.3972010612	0.0000000000
0.6207075795	1.3555363417	2.4023082256	0.0000000000
0.6207655702	1.3547217846	2.4026451111	0.0000000000
0.6208234036	1.3660308123	2.3979706764	0.0000000000
0.6208812161	3.8802471161	1.4922528267	0.0000000000
0.6209391266	17.5828323364	-0.6997054219	0.0000000000
0.6209969674	33.9932899475	-1.2098622322	0.0000000000
0.6210548261	42.5661201477	-1.2698910236	0.0000000000
0.6211127234	46.1049385071	-1.2821176052	0.0000000000
0.6211706165	47.3459434509	-1.2853838205	0.0000000000
0.6212284800	47.8733406067	-1.2866407633	0.0000000000
0.6212862974	47.9510574341	-1.2868198156	0.0000000000
0.6213442310	48.0333328247	-1.2870076895	0.0000000000
0.6214020382	48.2975807190	-1.2875995636	0.0000000000
0.6214599082	48.4009590149	-1.2878264189	0.0000000000
0.6215178535	48.2470054626	-1.2874876261	0.0000000000
0.6215756491	48.2480773926	-1.2874900103	0.0000000000
0.6216336221	48.0665397644	-1.2870830297	0.0000000000
0.6216914310	47.8233528137	-1.2865247726	0.0000000000
0.6217492855	47.7765464783	-1.2864155769	0.0000000000
0.6218072409	47.8815879822	-1.2866598368	0.0000000000
0.6218650899	48.4924011230	-1.2880249023	0.0000000000
0.6219228785	48.5073699951	-1.2880572081	0.0000000000
0.6219808261	48.3332977295	-1.2876782417	0.0000000000
0.6220386145	48.2921257019	-1.2875875235	0.0000000000
0.6220965438	48.3364982605	-1.2876852751	0.0000000000
0.6221544620	48.3442077637	-1.2877022028	0.0000000000
0.6222122593	48.3699798584	-1.2877587080	0.0000000000
0.6222701537	48.3811492920	-1.2877831459	0.0000000000
0.6223279759	48.3923873901	-1.2878077030	0.0000000000
0.6223859217	48.4022712708	-1.2878292799	0.0000000000
0.6224438064	48.3965911865	-1.2878168821	0.0000000000
0.6225016858	48.3862762451	-1.2877943516	0.0000000000
0.6225595624	48.3958244324	-1.2878152132	0.0000000000
