Day fraction since midnight on 	Photometer Conc (mg/L)	Photometer  (volts)	Source pressure (Pa)
start
0.6701293096	-1.0590351820	3.5481998920	0.0000000000
0.6701872712	-1.0560070276	3.5465610027	0.0000000000
0.6702450210	-1.0534640551	3.5451850891	0.0000000000
0.6703029552	-1.0524450541	3.5446338654	0.0000000000
0.6703607912	-1.0550421476	3.5460388660	0.0000000000
0.6704186931	-1.0548416376	3.5459303856	0.0000000000
0.6704765097	-1.0470888615	3.5417375565	0.0000000000
0.6705343878	-1.0214974880	3.5279228687	0.0000000000
0.6705923555	-0.9265551567	3.4770143032	0.0000000000
0.6706502146	-0.4963898659	3.2529904842	0.0000000000
0.6707080513	0.2070258409	2.9090375900	0.0000000000
0.6707658645	1.0629715919	2.5252969265	0.0000000000
0.6708237428	2.0894742012	2.1108644009	0.0000000000
0.6708816640	3.2602007389	1.6926199198	0.0000000000
0.6709395034	4.5511875153	1.2904864550	0.0000000000
0.6709973874	5.8890824318	0.9305227399	0.0000000000
0.6710553143	7.2669558525	0.6118628383	0.0000000000
0.6711131783	8.7196512222	0.3249049485	0.0000000000
0.6711710239	10.1095170975	0.0906093121	0.0000000000
0.6712289194	11.4416494370	-0.1023249999	0.0000000000
0.6712867205	12.6858129501	-0.2583959103	0.0000000000
0.6713446502	13.9103670120	-0.3922554851	0.0000000000
0.6714024340	14.9816761017	-0.4952772260	0.0000000000
0.6714603680	16.0796928406	-0.5888439417	0.0000000000
0.6715182584	17.0501613617	-0.6625258923	0.0000000000
0.6715760988	17.9779834747	-0.7258943319	0.0000000000
0.6716339380	18.8700485229	-0.7809414268	0.0000000000
0.6716918205	19.6688442230	-0.8257958889	0.0000000000
0.6717497458	20.4710521698	-0.8669962883	0.0000000000
0.6718076118	21.1678276062	-0.8999105692	0.0000000000
0.6718654394	21.8357181549	-0.9291489124	0.0000000000
0.6719233224	22.5020751953	-0.9562292695	0.0000000000
0.6719812241	23.0731964111	-0.9778909683	0.0000000000
0.6720390262	23.6440620422	-0.9982076883	0.0000000000
0.6720969917	24.1809940338	-1.0161720514	0.0000000000
0.6721548637	24.6900787354	-1.0322397947	0.0000000000
0.6722127692	25.1867313385	-1.0470604897	0.0000000000
0.6722705481	25.5947303772	-1.0586364269	0.0000000000
0.6723283835	26.0350723267	-1.0705531836	0.0000000000
0.6723863334	26.4397583008	-1.0810009241	0.0000000000
0.6724441331	26.8297710419	-1.0906335115	0.0000000000
0.6725020368	27.2126827240	-1.0996918678	0.0000000000
0.6725598703	27.5839977264	-1.1081142426	0.0000000000
0.6726177474	27.8841781616	-1.1146727800	0.0000000000
0.6726756103	28.2303676605	-1.1219689846	0.0000000000
0.6727335438	28.5303134918	-1.1280668974	0.0000000000
0.6727914026	28.8449420929	-1.1342478991	0.0000000000
0.6728492144	29.1174049377	-1.1394281387	0.0000000000
0.6729071486	29.3888778687	-1.1444354057	0.0000000000
0.6729650506	29.6105422974	-1.1484130621	0.0000000000
0.6730228867	29.8774032593	-1.1530731916	0.0000000000
0.6730806985	30.0869560242	-1.1566365957	0.0000000000
0.6731386000	30.3461933136	-1.1609312296	0.0000000000
0.6731964812	30.5621471405	-1.1644152403	0.0000000000
0.6732543409	30.7469978333	-1.1673315763	0.0000000000
