Day fraction since midnight on 	Accumulator pressure (Pa)	DO probe (mg/L)	Lab Air supply pressure (Pa)	air valve control ()	Max calibration pressure (Pa)	source pressure (Pa)	Max calibration pressure ()	Delta P ()	air flow rate(R * T )/ V ()	Fill time (s)	air fill model (Pa)
0.666798842	8463.217773	4.848012924	22480.25977	0.774955915	20232.23379	22480.25977	20232.23379	10232.23379	1963.2	5.212018026	20232.23379
0.666856693	8835.202148	4.944323063	21876.24414	0.801199091	19688.61973	21876.24414	19688.61973	9688.619727	1963.2	4.935115998	19688.61973
0.666914555	8964.677734	5.096382618	21433.1875	0.815123381	19289.86875	21433.1875	19289.86875	9289.86875	1963.2	4.732003235	19289.86875
0.66697242	9000.039063	5.271180153	21433.1875	0.811653708	19289.86875	21433.1875	19289.86875	9289.86875	1963.2	4.732003235	19289.86875
0.667030286	9168.47168	5.438315392	21244.40039	0.838624976	19119.96035	21244.40039	19119.96035	9119.960352	1963.2	4.645456577	19119.96035
0.667088159	9580.662109	5.586161137	21262.49609	0.846302762	19136.24648	21262.49609	19136.24648	9136.246484	1963.2	4.653752284	19136.24648
0.667146026	9708.060547	5.727688789	21256.11719	0.840825637	19130.50547	21256.11719	19130.50547	9130.505469	1963.2	4.650827969	19130.50547
0.66720391	9669.081055	5.868597031	21203.56445	0.849934777	19083.20801	21203.56445	19083.20801	9083.208008	1963.2	4.626735945	19083.20801
0.667261788	9790.452148	6.011238575	21213.31641	0.850714625	19091.98477	21213.31641	19091.98477	9091.984766	1963.2	4.631206584	19091.98477
0.667319658	9832.68457	6.1471591	21206.50391	0.851685043	19085.85352	21206.50391	19085.85352	9085.853516	1963.2	4.628083494	19085.85352
0.667377514	9832.692383	6.285540104	21175.18555	0.852765486	19057.66699	21175.18555	19057.66699	9057.666992	1963.2	4.613726056	19057.66699
0.667435391	9621.830078	6.382538319	21185.13867	0.841652361	19066.6248	21185.13867	19066.6248	9066.624805	1963.2	4.618288918	19066.6248
0.667493252	9700.664063	6.487361431	21152.2207	0.850826186	19036.99863	21152.2207	19036.99863	9036.998633	1963.2	4.603198163	19036.99863
0.667551116	9869.911133	6.600699425	21182.16992	0.855965766	19063.95293	21182.16992	19063.95293	9063.95293	1963.2	4.616927939	19063.95293
0.667608998	9817.389648	6.716629028	21192.66797	0.859241241	19073.40117	21192.66797	19073.40117	9073.401172	1963.2	4.621740613	19073.40117
0.667666875	9853.567383	6.814681053	21167.3457	0.852635546	19050.61113	21167.3457	19050.61113	9050.611133	1963.2	4.610131995	19050.61113
0.667724754	9835.045898	6.901268959	21155.06055	0.855092288	19039.55449	21155.06055	19039.55449	9039.554492	1963.2	4.604500047	19039.55449
0.667782606	9853.455078	6.980463505	21146.04883	0.860363554	19031.44395	21146.04883	19031.44395	9031.443945	1963.2	4.600368758	19031.44395
0.667840468	9826.163086	7.040526867	21129.85352	0.856386488	19016.86816	21129.85352	19016.86816	9016.868164	1963.2	4.592944256	19016.86816
0.667898345	9806.206055	7.145243168	21131.15039	0.853012231	19018.03535	21131.15039	19018.03535	9018.035352	1963.2	4.59353879	19018.03535
0.667956204	9807.613281	7.25483036	21141.15234	0.854922241	19027.03711	21141.15234	19027.03711	9027.037109	1963.2	4.598124037	19027.03711
0.668014091	9820.025391	7.337551594	21126.0332	0.853436682	19013.42988	21126.0332	19013.42988	9013.429883	1963.2	4.591192891	19013.42988
0.668071941	9692.060547	7.395806789	21124.2793	0.84222595	19011.85137	21124.2793	19011.85137	9011.851367	1963.2	4.590388838	19011.85137
0.668129812	9377.416992	7.459497452	21101.04492	0.84041033	18990.94043	21101.04492	18990.94043	8990.94043	1963.2	4.579737383	18990.94043
0.668187694	9229.740234	7.539214134	21152.00977	0.830427548	19036.80879	21152.00977	19036.80879	9036.808789	1963.2	4.603101461	19036.80879
0.668245555	9253.448242	7.605845451	21152.64453	0.832800092	19037.38008	21152.64453	19037.38008	9037.380078	1963.2	4.60339246	19037.38008
0.668303409	9174.513672	7.634296894	21178.71094	0.828862887	19060.83984	21178.71094	19060.83984	9060.839844	1963.2	4.615342219	19060.83984
0.668361292	9210.558594	7.702147961	21176.26953	0.833014755	19058.64258	21176.26953	19058.64258	9058.642578	1963.2	4.614222992	19058.64258
0.668419164	9496.695313	7.751202107	21151.79297	0.847612108	19036.61367	21151.79297	19036.61367	9036.613672	1963.2	4.603002074	19036.61367
0.668477041	9679.910156	7.797346592	21162.22461	0.852551146	19046.00215	21162.22461	19046.00215	9046.002148	1963.2	4.607784305	19046.00215
0.668534898	9716.722656	7.84541893	21162.68945	0.848165267	19046.42051	21162.68945	19046.42051	9046.420508	1963.2	4.607997406	19046.42051
0.668592771	9700.491211	7.904211044	21114.53906	0.855519591	19003.08516	21114.53906	19003.08516	9003.085156	1963.2	4.585923572	19003.08516
0.668650647	9708.953125	7.924864292	21086.42188	0.851581799	18977.77969	21086.42188	18977.77969	8977.779688	1963.2	4.573033663	18977.77969
0.668708505	9736.675781	7.975531101	21061.74609	0.855285225	18955.57148	21061.74609	18955.57148	8955.571484	1963.2	4.561721416	18955.57148
0.66876639	9719.143555	8.012784004	21026.19336	0.854731484	18923.57402	21026.19336	18923.57402	8923.574023	1963.2	4.545422791	18923.57402
0.668824255	9753.743164	8.07461071	21031.35742	0.85722139	18928.22168	21031.35742	18928.22168	8928.22168	1963.2	4.547790179	18928.22168
0.668882116	9701.265625	8.106786728	21028.10938	0.856400481	18925.29844	21028.10938	18925.29844	8925.298438	1963.2	4.54630116	18925.29844
0.668939994	9714.03125	8.136070252	20987.02148	0.858928552	18888.31934	20987.02148	18888.31934	8888.319336	1963.2	4.527465024	18888.31934
0.668997846	9729.942383	8.17983532	21004.94336	0.854082902	18904.44902	21004.94336	18904.44902	8904.449023	1963.2	4.535681043	18904.44902
0.669055741	9698.420898	8.206064224	20973.73438	0.854577219	18876.36094	20973.73438	18876.36094	8876.360938	1963.2	4.521373746	18876.36094
0.66911362	9744.760742	8.258586884	20963.7793	0.858727308	18867.40137	20963.7793	18867.40137	8867.401367	1963.2	4.516809987	18867.40137
0.669171472	9767.654297	8.259583473	20979.36133	0.859684507	18881.4252	20979.36133	18881.4252	8881.425195	1963.2	4.523953339	18881.4252
0.669229356	9838.986328	8.283522606	21078.79492	0.86167155	18970.91543	21078.79492	18970.91543	8970.91543	1963.2	4.569537199	18970.91543
0.669287199	9849.222656	8.30766201	21168.61523	0.855678257	19051.75371	21168.61523	19051.75371	9051.753711	1963.2	4.610713993	19051.75371
0.669345063	9955.916016	8.340512276	21318.26758	0.855298748	19186.44082	21318.26758	19186.44082	9186.44082	1963.2	4.679319896	19186.44082
0.669402945	9957.868164	8.362703323	21455.85352	0.849456933	19310.26816	21455.85352	19310.26816	9310.268164	1963.2	4.742394134	19310.26816
0.669460827	9968.621094	8.40382576	21561.16016	0.845479388	19405.04414	21561.16016	19405.04414	9405.044141	1963.2	4.790670406	19405.04414
0.669518686	10038.8291	8.4460392	21691.65625	0.839476225	19522.49063	21691.65625	19522.49063	9522.490625	1963.2	4.85049441	19522.49063
0.669576559	10070.25781	8.463870049	21798.17188	0.83421059	19618.35469	21798.17188	19618.35469	9618.354688	1963.2	4.899324922	19618.35469
0.669634412	10037.66504	8.4556036	21916.69531	0.835343126	19725.02578	21916.69531	19725.02578	9725.025781	1963.2	4.953660239	19725.02578
0.6696923	10091.68555	8.494413376	21983.10742	0.8328536	19784.79668	21983.10742	19784.79668	9784.79668	1963.2	4.984105888	19784.79668
0.669750168	10152.77051	8.509568214	21943.71875	0.834202413	19749.34688	21943.71875	19749.34688	9749.346875	1963.2	4.966048734	19749.34688
0.66980802	10156.39551	8.529603958	22052.00391	0.834042679	19846.80352	22052.00391	19846.80352	9846.803516	1963.2	5.015690462	19846.80352
0.669865907	9981.234375	8.552476883	22168.31641	0.817389899	19951.48477	22168.31641	19951.48477	9951.484766	1963.2	5.069012207	19951.48477
0.669923751	9743.427734	8.558391571	22233.46289	0.812558611	20010.1166	22233.46289	20010.1166	10010.1166	1963.2	5.09887765	20010.1166
0.669981636	9641.019531	8.584382057	22318.18555	0.809425013	20086.36699	22318.18555	20086.36699	10086.36699	1963.2	5.137717498	20086.36699
0.670039455	9652.552734	8.599927902	22428.45508	0.803833983	20185.60957	22428.45508	20185.60957	10185.60957	1963.2	5.188268934	20185.60957
0.670097375	9666.117188	8.626276016	22477.7207	0.800685921	20229.94863	22477.7207	20229.94863	10229.94863	1963.2	5.210854031	20229.94863
0.670155225	9663.954102	8.618947983	22512.97461	0.798696745	20261.67715	22512.97461	20261.67715	10261.67715	1963.2	5.227015662	20261.67715
0.670213118	9677.279297	8.625201225	22586.81641	0.799485275	20328.13477	22586.81641	20328.13477	10328.13477	1963.2	5.260867342	20328.13477
0.670270979	9703.420898	8.672974587	22594.23242	0.797962443	20334.80918	22594.23242	20334.80918	10334.80918	1963.2	5.264267105	20334.80918
0.670328764	9690.847656	8.683222771	22594.86328	0.79794135	20335.37695	22594.86328	20335.37695	10335.37695	1963.2	5.264556313	20335.37695
0.67038672	9713.990234	8.685602188	22626.20508	0.799872404	20363.58457	22626.20508	20363.58457	10363.58457	1963.2	5.278924496	20363.58457
0.670444604	9655.413086	8.686170578	22626.20508	0.797951049	20363.58457	22626.20508	20363.58457	10363.58457	1963.2	5.278924496	20363.58457
0.670502458	9703.019531	8.694820404	22657.94727	0.799882329	20392.15254	22657.94727	20392.15254	10392.15254	1963.2	5.293476232	20392.15254
0.67056034	9819.476563	8.710316658	22666.25	0.806518318	20399.625	22666.25	20399.625	10399.625	1963.2	5.297282498	20399.625
0.670618196	9882.717773	8.734788895	22699.02539	0.806833993	20429.12285	22699.02539	20429.12285	10429.12285	1963.2	5.312307891	20429.12285
0.67067608	9984.047852	8.769778252	22891.41406	0.799464244	20602.27266	22891.41406	20602.27266	10602.27266	1963.2	5.400505632	20602.27266
0.67073394	10022.08203	8.741446495	23044.53125	0.795249378	20740.07813	23044.53125	20740.07813	10740.07813	1963.2	5.470699941	20740.07813
0.670791811	10071.72656	8.743414879	23114.77148	0.795905609	20803.29434	23114.77148	20803.29434	10803.29434	1963.2	5.502900538	20803.29434
0.670849686	9896.729492	8.767231941	23146.92188	0.782129674	20832.22969	23146.92188	20832.22969	10832.22969	1963.2	5.517639409	20832.22969
0.670907549	10014.51172	8.774507523	23169.32617	0.787106302	20852.39355	23169.32617	20852.39355	10852.39355	1963.2	5.527910327	20852.39355
0.670965408	10098.73926	8.7780056	23204.62109	0.792044579	20884.15898	23204.62109	20884.15898	10884.15898	1963.2	5.544090762	20884.15898
0.671023282	10204.85547	8.773615837	23204.08984	0.793337619	20883.68086	23204.08984	20883.68086	10883.68086	1963.2	5.543847219	20883.68086
0.671081149	10151.49609	8.795816422	23198.77344	0.789612796	20878.89609	23198.77344	20878.89609	10878.89609	1963.2	5.541409991	20878.89609
0.671139022	10221.21582	8.802362442	23166.07617	0.793794981	20849.46855	23166.07617	20849.46855	10849.46855	1963.2	5.526420413	20849.46855
0.671196882	10216.82227	8.819849014	23126.69336	0.797567313	20814.02402	23126.69336	20814.02402	10814.02402	1963.2	5.508365945	20814.02402
0.671254784	10179.68262	8.835313797	23142.25977	0.793249304	20828.03379	23142.25977	20828.03379	10828.03379	1963.2	5.515502134	20828.03379
0.671312627	10163.98047	8.847047806	23010.46484	0.798810939	20709.41836	23010.46484	20709.41836	10709.41836	1963.2	5.455082701	20709.41836
0.671370518	10115.3916	8.826033592	22766.08594	0.808583361	20489.47734	22766.08594	20489.47734	10489.47734	1963.2	5.343050807	20489.47734
0.67142836	10052.41406	8.755839348	22647.72461	0.803275371	20382.95215	22647.72461	20382.95215	10382.95215	1963.2	5.288789807	20382.95215
0.671486234	9897.435547	8.653671265	22527.29492	0.806681999	20274.56543	22527.29492	20274.56543	10274.56543	1963.2	5.233580598	20274.56543
0.671544115	9977.837891	8.609377861	21997.79688	0.837044796	19798.01719	21997.79688	19798.01719	9798.017188	1963.2	4.990840051	19798.01719
0.671601995	10249.96777	8.615038872	21484.31641	0.858926601	19335.88477	21484.31641	19335.88477	9335.884766	1963.2	4.755442525	19335.88477
0.671659825	10356.74609	8.610779762	21355.01953	0.869010728	19219.51758	21355.01953	19219.51758	9219.517578	1963.2	4.696168286	19219.51758
0.671717718	10449.87109	8.596713066	21645.25	0.859043631	19480.725	21645.25	19480.725	9480.725	1963.2	4.829220151	19480.725
0.671775579	10472.23926	8.58497715	21871.89063	0.849570964	19684.70156	21871.89063	19684.70156	9684.701563	1963.2	4.933120193	19684.70156
0.671833463	10544.99609	8.563715935	22048.03711	0.846597791	19843.2334	22048.03711	19843.2334	9843.233398	1963.2	5.013871943	19843.2334
0.671891344	10602.38184	8.573515892	22148.33008	0.840884033	19933.49707	22148.33008	19933.49707	9933.49707	1963.2	5.059849771	19933.49707
0.671949192	10451.08496	8.563611031	22219.83789	0.83200141	19997.8541	22219.83789	19997.8541	9997.854102	1963.2	5.09263147	19997.8541
0.672007086	10304.71094	8.577682495	22315.04492	0.823359926	20083.54043	22315.04492	20083.54043	10083.54043	1963.2	5.136277725	20083.54043
0.672064927	10202.35938	8.580980301	22396.73828	0.822353188	20157.06445	22396.73828	20157.06445	10157.06445	1963.2	5.173728837	20157.06445
0.672122801	10154.23828	8.591207504	22466.92188	0.816383027	20220.22969	22466.92188	20220.22969	10220.22969	1963.2	5.205903468	20220.22969
0.672180672	9985.193359	8.605304718	22451.23438	0.811709099	20206.11094	22451.23438	20206.11094	10206.11094	1963.2	5.198711765	20206.11094
0.672238539	9902.479492	8.60585022	22219.08398	0.819345311	19997.17559	22219.08398	19997.17559	9997.175586	1963.2	5.092285853	19997.17559
0.672296311	9930.006836	8.593136787	21503.03906	0.845363728	19352.73516	21503.03906	19352.73516	9352.735156	1963.2	4.76402565	19352.73516
0.672354271	10008.74805	6.569035053	21188.3125	0.858601008	19069.48125	21188.3125	19069.48125	9069.48125	1963.2	4.619743913	19069.48125
0.67241217	10034.36621	2.586057663	21066.63477	0.867719589	18959.97129	21066.63477	18959.97129	8959.971289	1963.2	4.563962556	18959.97129
0.672470029	10037.01758	1.114011765	21073.88281	0.860844052	18966.49453	21073.88281	18966.49453	8966.494531	1963.2	4.567285315	18966.49453
0.672527878	9981.420898	0.605032444	21124.53906	0.863920916	19012.08516	21124.53906	19012.08516	9012.085156	1963.2	4.590507924	19012.08516
0.672585753	9992.521484	0.398383856	21169.04492	0.85579305	19052.14043	21169.04492	19052.14043	9052.14043	1963.2	4.610910977	19052.14043
0.672643605	9978.358398	0.297455668	21182.87695	0.864639158	19064.58926	21182.87695	19064.58926	9064.589258	1963.2	4.617252067	19064.58926
0.672701512	9966.052734	0.238145486	21213.94922	0.855823622	19092.5543	21213.94922	19092.5543	9092.554297	1963.2	4.631496688	19092.5543
0.672759342	10018.58789	0.200001806	21219.0625	0.858702438	19097.15625	21219.0625	19097.15625	9097.15625	1963.2	4.633840796	19097.15625
0.672817241	9951.801758	0.169408888	21211.18164	0.850852708	19090.06348	21211.18164	19090.06348	9090.063477	1963.2	4.630227932	19090.06348
0.672875092	9917.063477	0.151550338	21197.21484	0.860526862	19077.49336	21197.21484	19077.49336	9077.493359	1963.2	4.623825061	19077.49336
0.672932961	9948.701172	0.136238068	21172.42969	0.85742154	19055.18672	21172.42969	19055.18672	9055.186719	1963.2	4.612462673	19055.18672
0.67299085	9926.276367	0.120703019	21187.33984	0.852018466	19068.60586	21187.33984	19068.60586	9068.605859	1963.2	4.619298013	19068.60586
0.673048678	9750.798828	0.115181446	21164.80859	0.854822471	19048.32773	21164.80859	19048.32773	9048.327734	1963.2	4.608968895	19048.32773
0.673106575	9562.560547	0.099914342	21179.25195	0.837887184	19061.32676	21179.25195	19061.32676	9061.326758	1963.2	4.615590239	19061.32676
0.67316444	9476.28418	0.097046681	21168.82031	0.840112349	19051.93828	21168.82031	19051.93828	9051.938281	1963.2	4.610808008	19051.93828
0.673222342	9610.977539	0.09098319	21184.1582	0.851712234	19065.74238	21184.1582	19065.74238	9065.742383	1963.2	4.617839437	19065.74238
0.673280211	9744.074219	0.085528612	21200.60547	0.850520585	19080.54492	21200.60547	19080.54492	9080.544922	1963.2	4.625379443	19080.54492
0.673338042	9754.780273	0.081026904	21200.39063	0.849568021	19080.35156	21200.39063	19080.35156	9080.351563	1963.2	4.625280951	19080.35156
0.673395933	9909.609375	0.078446008	21166.68945	0.857890057	19050.02051	21166.68945	19050.02051	9050.020508	1963.2	4.609831147	19050.02051
0.673453784	10029.4707	0.073890112	21338.27734	0.858078476	19204.44961	21338.27734	19204.44961	9204.449609	1963.2	4.688493077	19204.44961
0.673511665	10068.19824	0.0746473	21840.67969	0.833417979	19656.61172	21840.67969	19656.61172	9656.611719	1963.2	4.918812	19656.61172
0.673569552	9814.761719	0.067614377	22211.87891	0.813852105	19990.69102	22211.87891	19990.69102	9990.691016	1963.2	5.088982791	19990.69102
0.673627406	9673.704102	0.066164739	22423.13672	0.800034413	20180.82305	22423.13672	20180.82305	10180.82305	1963.2	5.18583081	20180.82305
0.67368527	9590.811523	0.065640129	22526.65234	0.798149478	20273.98711	22526.65234	20273.98711	10273.98711	1963.2	5.233286017	20273.98711
0.673743131	9498.53418	0.061370246	22550.64648	0.796432065	20295.58184	22550.64648	20295.58184	10295.58184	1963.2	5.244285776	20295.58184
0.673801019	9609.322266	0.058384411	22501.86719	0.800300203	20251.68047	22501.86719	20251.68047	10251.68047	1963.2	5.221923629	20251.68047
0.673858882	9590.976563	0.0560105	22513.30859	0.795047348	20261.97773	22513.30859	20261.97773	10261.97773	1963.2	5.227168773	20261.97773
0.673916738	9508.253906	0.060322531	22513.30859	0.796938906	20261.97773	22513.30859	20261.97773	10261.97773	1963.2	5.227168773	20261.97773
0.673974609	9507.505859	0.061768405	22437.45313	0.796904166	20193.70781	22437.45313	20193.70781	10193.70781	1963.2	5.192393955	20193.70781
0.674032511	9483.862305	0.055749323	22414.58984	0.798665917	20173.13086	22414.58984	20173.13086	10173.13086	1963.2	5.181912622	20173.13086
0.674090355	9443.526367	0.055876523	22374.38672	0.798069141	20136.94805	22374.38672	20136.94805	10136.94805	1963.2	5.163482094	20136.94805
0.674148218	9461.494141	0.048842847	22351.39453	0.800312897	20116.25508	22351.39453	20116.25508	10116.25508	1963.2	5.152941666	20116.25508
0.674206095	9372.876953	0.050468609	22316.94531	0.801631371	20085.25078	22316.94531	20085.25078	10085.25078	1963.2	5.137148931	20085.25078
0.674263978	9427.370117	0.048348345	22303.27734	0.802182039	20072.94961	22303.27734	20072.94961	10072.94961	1963.2	5.130883053	20072.94961
0.674321837	9455.420898	0.047065798	22324.15039	0.799135672	20091.73535	22324.15039	20091.73535	10091.73535	1963.2	5.140451992	20091.73535
0.674379685	9341.957031	0.045572508	22295.19141	0.799729979	20065.67227	22295.19141	20065.67227	10065.67227	1963.2	5.127176174	20065.67227
0.674437583	9337.323242	0.046837743	22275.64648	0.803423043	20048.08184	22275.64648	20048.08184	10048.08184	1963.2	5.118216094	20048.08184
0.674495444	9315.000977	0.045936801	22253.25391	0.801106474	20027.92852	22253.25391	20027.92852	10027.92852	1963.2	5.107950548	20027.92852
0.674553315	9336.595703	0.046042927	22241.95703	0.796417543	20017.76133	22241.95703	20017.76133	10017.76133	1963.2	5.102771663	20017.76133
0.674611159	9471.095703	0.043694604	22217.29102	0.803055193	19995.56191	22217.29102	19995.56191	9995.561914	1963.2	5.091463893	19995.56191
0.674669051	9459.478516	0.041672185	22212.38477	0.806854443	19991.14629	22212.38477	19991.14629	9991.146289	1963.2	5.089214695	19991.14629
0.674726917	9391.163086	0.039980941	22184.2832	0.800551832	19965.85488	22184.2832	19965.85488	9965.854883	1963.2	5.076331949	19965.85488
0.674784793	9445.913086	0.042230666	22270.29492	0.804630021	20043.26543	22270.29492	20043.26543	10043.26543	1963.2	5.115762749	20043.26543
0.674842661	9433.418945	0.042422593	22360.12695	0.803549353	20124.11426	22360.12695	20124.11426	10124.11426	1963.2	5.156944915	20124.11426
0.674900528	9394.729492	0.039997499	22423.91602	0.794038248	20181.52441	22423.91602	20181.52441	10181.52441	1963.2	5.186188068	20181.52441
0.674958403	9402.128906	0.064843804	22424.33984	0.79283095	20181.90586	22424.33984	20181.90586	10181.90586	1963.2	5.186382365	20181.90586
0.675016289	9428.915039	0.079460606	22367.35938	0.797495865	20130.62344	22367.35938	20130.62344	10130.62344	1963.2	5.160260512	20130.62344
0.67507415	9406.366211	0.070049256	22355.22852	0.804744025	20119.70566	22355.22852	20119.70566	10119.70566	1963.2	5.154699299	20119.70566
0.67513201	9470.782227	0.056110606	22318.63477	0.805210337	20086.77129	22318.63477	20086.77129	10086.77129	1963.2	5.137923436	20086.77129
0.675189879	9578.410156	0.048776612	22311.85742	0.801847964	20080.67168	22311.85742	20080.67168	10080.67168	1963.2	5.134816463	20080.67168
0.67524774	9558.118164	0.04720128	22638.92578	0.792893771	20375.0332	22638.92578	20375.0332	10375.0332	1963.2	5.284756114	20375.0332
0.6753056	9640.429688	0.040440068	22731.60156	0.795317884	20458.44141	22731.60156	20458.44141	10458.44141	1963.2	5.327241955	20458.44141
0.675363467	9666.25293	0.045988731	22710.09375	0.798461541	20439.08438	22710.09375	20439.08438	10439.08438	1963.2	5.317382017	20439.08438
0.675421354	9786.837891	0.044697154	22681.50195	0.799761474	20413.35176	22681.50195	20413.35176	10413.35176	1963.2	5.30427453	20413.35176
0.675479231	9822.733398	0.043207627	22624.72461	0.799273509	20362.25215	22624.72461	20362.25215	10362.25215	1963.2	5.278245797	20362.25215
0.675537096	9720.523438	0.042174213	22599.4082	0.799057709	20339.46738	22599.4082	20339.46738	10339.46738	1963.2	5.266639865	20339.46738
0.675594952	9518.307617	0.039804816	22561.71094	0.7922574	20305.53984	22561.71094	20305.53984	10305.53984	1963.2	5.249358111	20305.53984
0.675652829	9420.668945	0.038046587	22561.71094	0.794318361	20305.53984	22561.71094	20305.53984	10305.53984	1963.2	5.249358111	20305.53984
0.675710703	9342.078125	0.036651895	22530.23828	0.790546917	20277.21445	22530.23828	20277.21445	10277.21445	1963.2	5.234929937	20277.21445
0.675768588	9318.574219	0.033578001	22463.94922	0.790507821	20217.5543	22463.94922	20217.5543	10217.5543	1963.2	5.204540697	20217.5543
0.675826443	9309.783203	0.035479236	22419.67773	0.794937276	20177.70996	22419.67773	20177.70996	10177.70996	1963.2	5.18424509	20177.70996
0.675884289	9177.788086	0.038003683	22383.03906	0.791351953	20144.73516	22383.03906	20144.73516	10144.73516	1963.2	5.167448633	20144.73516
0.675942173	9123.12207	0.03669028	22348.84375	0.790456847	20113.95938	22348.84375	20113.95938	10113.95938	1963.2	5.151772298	20113.95938
0.676000051	9163.544922	0.035784069	22347.68164	0.789022607	20112.91348	22347.68164	20112.91348	10112.91348	1963.2	5.151239546	20112.91348
0.676057908	9261.160156	0.034776244	22332.03125	0.795323556	20098.82813	22332.03125	20098.82813	10098.82813	1963.2	5.144064856	20098.82813
0.676115778	9279.728516	0.034883879	22279.44141	0.795443701	20051.49727	22279.44141	20051.49727	10051.49727	1963.2	5.11995582	20051.49727
0.676173665	9260.973633	0.033856485	22280.2793	0.799410706	20052.25137	22280.2793	20052.25137	10052.25137	1963.2	5.120339939	20052.25137
0.676231517	9131.795898	0.033558428	22284.12891	0.785952595	20055.71602	22284.12891	20055.71602	10055.71602	1963.2	5.122104735	20055.71602
0.676289402	9172.503906	0.033550903	22237.29883	0.794017482	20013.56895	22237.29883	20013.56895	10013.56895	1963.2	5.100636178	20013.56895
0.676347272	9260.426758	0.033293489	22243.89258	0.799421505	20019.50332	22243.89258	20019.50332	10019.50332	1963.2	5.103658986	20019.50332
0.676405138	9127.751953	0.033644985	22227.54883	0.788581485	20004.79395	22227.54883	20004.79395	10004.79395	1963.2	5.096166435	20004.79395
0.676462993	8883.587891	0.03851926	22190.36719	0.784737405	19971.33047	22190.36719	19971.33047	9971.330469	1963.2	5.079121062	19971.33047
0.676520852	7421.510254	0.046054967	22173.33008	0.716088111	19955.99707	22173.33008	19955.99707	9955.99707	1963.2	5.071310651	19955.99707
0.676578745	5450.017578	0.051211491	21599.69531	0.720289718	19439.72578	21599.69531	19439.72578	9439.725781	1963.2	4.808336278	19439.72578
0.6766366	6093.358887	0.047329985	20834.81836	0.776461308	18751.33652	20834.81836	18751.33652	8751.336523	1963.2	4.457689753	18751.33652
0.676694483	8262.804688	0.043845136	12883.04297	1.51532367	11594.73867	12883.04297	11594.73867	1594.738672	1963.2	0.812315949	11594.73867
0.676752342	9497.648438	0.049327567	13268.14746	1.507756903	11941.33271	13268.14746	11941.33271	1941.332715	1963.2	0.988861407	11941.33271
0.67681022	9474.944336	0.077007666	21040.03906	0.839808402	18936.03516	21040.03906	18936.03516	8936.035156	1963.2	4.551770149	18936.03516
0.6768681	9281.724609	0.13984184	21838.21875	0.808928773	19654.39688	21838.21875	19654.39688	9654.396875	1963.2	4.91768382	19654.39688
0.676925951	9131.620117	0.223304391	21635.88477	0.816426489	19472.29629	21635.88477	19472.29629	9472.296289	1963.2	4.824926798	19472.29629
0.67698382	9214.603516	0.30749777	21608.79492	0.82260244	19447.91543	21608.79492	19447.91543	9447.91543	1963.2	4.81250786	19447.91543
0.677041684	9242.955078	0.408576489	21937.33398	0.808122699	19743.60059	21937.33398	19743.60059	9743.600586	1963.2	4.963121733	19743.60059
0.677099557	9357.923828	0.50297302	22312.65039	0.797372871	20081.38535	22312.65039	20081.38535	10081.38535	1963.2	5.135179988	20081.38535
0.677157418	9346.768555	0.604243696	22575.7793	0.787595147	20318.20137	22575.7793	20318.20137	10318.20137	1963.2	5.255807542	20318.20137
0.677215321	9473.021484	0.724403262	22766.875	0.786650186	20490.1875	22766.875	20490.1875	10490.1875	1963.2	5.343412541	20490.1875
0.677273167	9415.823242	0.848476708	22874.19531	0.783412303	20586.77578	22874.19531	20586.77578	10586.77578	1963.2	5.392611951	20586.77578
0.67733105	9527.979492	0.995925784	22988.65039	0.78053244	20689.78535	22988.65039	20689.78535	10689.78535	1963.2	5.445082188	20689.78535
0.677388921	9587.114258	1.122646332	22988.65039	0.779389384	20689.78535	22988.65039	20689.78535	10689.78535	1963.2	5.445082188	20689.78535
0.677446763	9297.25293	1.260148883	23228.55664	0.764085187	20905.70098	23228.55664	20905.70098	10905.70098	1963.2	5.55506366	20905.70098
0.677504656	9108.615234	1.425214171	23273.9668	0.767904377	20946.57012	23273.9668	20946.57012	10946.57012	1963.2	5.575881274	20946.57012
0.677562519	9368.063477	1.588060498	23341.70703	0.769321159	21007.53633	23341.70703	21007.53633	11007.53633	1963.2	5.606935783	21007.53633
0.677620392	9161.077148	1.734790087	23451.98828	0.753658806	21106.78945	23451.98828	21106.78945	11106.78945	1963.2	5.65749259	21106.78945
0.677678251	8921.453125	1.886491656	23441.54102	0.752466964	21097.38691	23441.54102	21097.38691	11097.38691	1963.2	5.652703196	21097.38691
0.677736123	8911.621094	2.036033869	23352.77344	0.7538839	21017.49609	23352.77344	21017.49609	11017.49609	1963.2	5.612009013	21017.49609
0.677793994	8859.382813	2.169477224	23309.56055	0.75453466	20978.60449	23309.56055	20978.60449	10978.60449	1963.2	5.592198702	20978.60449
0.677851834	8854.625977	2.292989969	23322.26563	0.752968224	20990.03906	23322.26563	20990.03906	10990.03906	1963.2	5.598023157	20990.03906
0.677909735	8719.334961	2.455251694	23272.13281	0.755684437	20944.91953	23272.13281	20944.91953	10944.91953	1963.2	5.575040511	20944.91953
0.677967602	8915.402344	2.59364748	23265.92969	0.755664553	20939.33672	23265.92969	20939.33672	10939.33672	1963.2	5.57219678	20939.33672
0.678025476	8960.869141	2.721821547	23212.44336	0.756654141	20891.19902	23212.44336	20891.19902	10891.19902	1963.2	5.547676764	20891.19902
0.678083337	9053.527344	2.884267807	23225.04492	0.758016987	20902.54043	23225.04492	20902.54043	10902.54043	1963.2	5.553453764	20902.54043
0.678141212	8727.741211	3.022663832	23152.74414	0.754844556	20837.46973	23152.74414	20837.46973	10837.46973	1963.2	5.52030854	20837.46973
0.678199082	8795.420898	3.169796467	23120.78711	0.760782896	20808.7084	23120.78711	20808.7084	10808.7084	1963.2	5.505658312	20808.7084
0.678256957	8990.827148	3.286111116	23087.14063	0.767591843	20778.42656	23087.14063	20778.42656	10778.42656	1963.2	5.490233579	20778.42656
0.678314834	9085.901367	3.416699171	23085.82227	0.762050436	20777.24004	23085.82227	20777.24004	10777.24004	1963.2	5.489629197	19681.15095
0.678372682	8994.74707	3.488406658	23073.16406	0.762825024	20765.84766	23073.16406	20765.84766	10765.84766	1963.2	5.483826231	20765.84766
0.678430557	8908.510742	3.455605745	23037.29297	0.761322498	20733.56367	23037.29297	20733.56367	10733.56367	1963.2	5.467381659	20733.56367
0.678488425	8851.283203	3.322321892	23391.52539	0.750032364	21052.37285	23391.52539	21052.37285	11052.37285	1963.2	5.629774272	21052.37285
0.678546299	8772.876953	3.183578253	23708.14648	0.743657105	21337.33184	23708.14648	21337.33184	11337.33184	1963.2	5.774924529	21337.33184
0.678604147	8701.964844	3.056172133	23742.11523	0.742660485	21367.90371	23742.11523	21367.90371	11367.90371	1963.2	5.790497	21367.90371
0.678662023	8660.776367	2.995841503	23712.97266	0.741668006	21341.67539	23712.97266	21341.67539	11341.67539	1963.2	5.777137016	10639.60296
0.678719914	8902.711914	2.885206938	23700.38281	0.749037026	21330.34453	23700.38281	21330.34453	11330.34453	1963.2	5.771365389	20418.36009
0.678777766	8943.77832	2.845174313	23648.47656	0.743881121	21283.62891	23648.47656	21283.62891	11283.62891	1963.2	5.747569736	21283.62891
0.678835641	8619.896484	2.948524237	23583.24219	0.739937317	21224.91797	23583.24219	21224.91797	11224.91797	1963.2	5.717664002	21224.91797
0.678893493	8371.171875	3.122009993	23015.57813	0.752191808	20714.02031	23015.57813	20714.02031	10714.02031	1963.2	5.45742681	20714.02031
0.678951364	8712.516602	3.249818087	22219.62695	0.786901591	19997.66426	22219.62695	19997.66426	9997.664258	1963.2	5.092534769	19997.66426
0.679009244	8941.041992	3.370022535	21891.5918	0.798216584	19702.43262	21891.5918	19702.43262	9702.432617	1963.2	4.942151904	19702.43262
0.679067103	9140.850586	3.494135857	21854.30859	0.806952532	19668.87773	21854.30859	19668.87773	9668.877734	1963.2	4.925059971	19668.87773
0.679124999	9238.128906	3.681168556	21883.48242	0.804527485	19695.13418	21883.48242	19695.13418	9695.13418	1963.2	4.938434281	19695.13418
0.679182841	9342.131836	3.863832951	22082.03516	0.804448153	19873.83164	22082.03516	19873.83164	9873.831641	1963.2	5.029457845	19873.83164
0.679240706	9293.296875	4.01500845	22370.375	0.793921639	20133.3375	22370.375	20133.3375	10133.3375	1963.2	5.161642981	20133.3375
0.679298601	9377.828125	4.140739441	22428.35938	0.79150021	20185.52344	22428.35938	20185.52344	10185.52344	1963.2	5.18822506	20185.52344
0.679356466	9382.863281	4.273244858	22450.18555	0.795798964	20205.16699	22450.18555	20205.16699	10205.16699	1963.2	5.198230946	20205.16699
0.679414336	9301.685547	4.381932259	22459.50586	0.793044583	20213.55527	22459.50586	20213.55527	10213.55527	1963.2	5.202503705	20213.55527
0.679472227	9343.181641	4.514214039	22456.55664	0.793351939	20210.90098	22456.55664	20210.90098	10210.90098	1963.2	5.201151679	20210.90098
0.679530068	9378.663086	4.672244072	22426.41211	0.790646794	20183.7709	22426.41211	20183.7709	10183.7709	1963.2	5.187332365	20183.7709
0.679587923	9311.74707	4.797498703	22427.59375	0.791328107	20184.83438	22427.59375	20184.83438	10184.83438	1963.2	5.18787407	20184.83438
0.67964579	9338.750977	4.905994892	22418.45117	0.789448221	20176.60605	22418.45117	20176.60605	10176.60605	1963.2	5.183682791	20176.60605
0.679703662	9349.361328	5.023267269	22417.7793	0.795676124	20176.00137	22417.7793	20176.00137	10176.00137	1963.2	5.18337478	20176.00137
0.679761559	9351.094727	5.136320591	22379.91406	0.793598855	20141.92266	22379.91406	20141.92266	10141.92266	1963.2	5.166016023	20141.92266
0.679819404	9300.550781	5.249830723	22368.84375	0.791617221	20131.95938	22368.84375	20131.95938	10131.95938	1963.2	5.160941002	20131.95938
0.679877289	9289.608398	5.316025257	22336.12305	0.795179065	20102.51074	22336.12305	20102.51074	10102.51074	1963.2	5.14594068	20102.51074
0.679935148	9274.191406	5.405666351	22330.29102	0.794268075	20097.26191	22330.29102	20097.26191	10097.26191	1963.2	5.143267071	20097.26191
0.679993013	9320.682617	5.505579472	22320.12305	0.801371997	20088.11074	22320.12305	20088.11074	10088.11074	1963.2	5.138605716	20088.11074
0.680050889	9177.5	5.594105244	22258.79102	0.794423672	20032.91191	22258.79102	20032.91191	10032.91191	1963.2	5.110488954	20032.91191
0.680108745	9291.482422	5.701854229	22254.45898	0.797408664	20029.01309	22254.45898	20029.01309	10029.01309	1963.2	5.108502998	20029.01309
0.680166629	9283.693359	5.809042931	22229.19531	0.793116567	20006.27578	22229.19531	20006.27578	10006.27578	1963.2	5.096921242	20006.27578
0.680224516	9288.219727	5.896633625	22221.75586	0.799519398	19999.58027	22221.75586	19999.58027	9999.580273	1963.2	5.093510734	19999.58027
0.680282368	9290.760742	5.973013878	22201.92578	0.795505886	19981.7332	22201.92578	19981.7332	9981.733203	1963.2	5.084419928	19981.7332
0.680340263	9220.644531	6.040850163	22207.48438	0.798110461	19986.73594	22207.48438	19986.73594	9986.735938	1963.2	5.086968183	19986.73594
0.680398123	9275.617188	6.123662472	22164.06641	0.798938243	19947.65977	22164.06641	19947.65977	9947.659766	1963.2	5.067063858	19947.65977
0.680456004	9314.09082	6.179878235	22167.96289	0.798986334	19951.1666	22167.96289	19951.1666	9951.166602	1963.2	5.068850143	19951.1666
0.680513831	9319.451172	6.22032404	22136.17188	0.802780228	19922.55469	22136.17188	19922.55469	9922.554688	1963.2	5.054276023	19922.55469
0.680571729	9325.331055	6.279223442	22133.92578	0.799412904	19920.5332	22133.92578	19920.5332	9920.533203	1963.2	5.053246334	19920.5332
0.680629587	9311.59375	6.35702467	22155.54883	0.804821575	19939.99395	22155.54883	19939.99395	9939.993945	1963.2	5.0631591	19939.99395
0.680687454	9272.188477	6.417286396	22097.07227	0.804861768	19887.36504	22097.07227	19887.36504	9887.365039	1963.2	5.036351385	19887.36504
0.680745314	9267.602539	6.493210793	22067.63086	0.805031774	19860.86777	22067.63086	19860.86777	9860.867773	1963.2	5.022854408	19860.86777
0.680803206	9291.875977	6.52713871	22074.82031	0.801107065	19867.33828	22074.82031	19867.33828	9867.338281	1963.2	5.026150306	19867.33828
0.680861071	9293.915039	6.578386307	22074.82031	0.806763201	19867.33828	22074.82031	19867.33828	9867.338281	1963.2	5.026150306	19867.33828
0.680918936	9300.268555	6.61052084	22050.39648	0.803645021	19845.35684	22050.39648	19845.35684	9845.356836	1963.2	5.014953564	19845.35684
0.680976807	9201.94043	6.706058979	22008.86719	0.805261944	19807.98047	22008.86719	19807.98047	9807.980469	1963.2	4.995915072	19807.98047
0.681034681	9283.475586	6.783054352	22029.49805	0.804012151	19826.54824	22029.49805	19826.54824	9826.548242	1963.2	5.005372984	19826.54824
0.681092533	9258.478516	6.806595802	22004.30469	0.800801629	19803.87422	22004.30469	19803.87422	9803.874219	1963.2	4.993823461	19803.87422
0.681150436	9243.706055	6.805968761	21949.625	0.804851702	19754.6625	21949.625	19754.6625	9754.6625	1963.2	4.968756367	19754.6625
0.68120827	9247.532227	6.846985817	21943.71094	0.805935582	19749.33984	21943.71094	19749.33984	9749.339844	1963.2	4.966045153	19749.33984
0.681266154	9239.676758	6.916897297	21952.81836	0.802925378	19757.53652	21952.81836	19757.53652	9757.536523	1963.2	4.970220316	19757.53652
